Folder: FrantzNodvik/src/input_data

Note: src/input_data/SpectrumInTIPTOE.txt
Photon Energy (eV) 	 Spectral Intensity(a.u.) 

1.5917032718504	0.27673039392346
1.75087359903544	0.297827356160024
1.91004392622048	0.27535293799459
2.06921425340552	0.24009907050942
2.22838458059056	0.206469967020233
2.3875549077756	0.17826730854234
2.54672523496065	0.158511641281535
2.70589556214569	0.150184439129405
2.86506588933073	0.150476885285917
3.02423621651577	0.157481207161077
3.18340654370081	0.169276037438976
3.34257687088585	0.183518373181755
3.50174719807089	0.196769853773515
3.66091752525593	0.208264900382944
3.82008785244097	0.217243361269845
3.97925817962601	0.223464826727647
4.13842850681105	0.227143274067822
4.29759883399609	0.228178832148153
4.45676916118113	0.226927912102093
4.61593948836617	0.224007389764509
4.77510981555121	0.219574722828362
4.93428014273625	0.213861343212374
5.09345046992129	0.20729907503833
5.25262079710633	0.199959343068395
5.41179112429137	0.192011489090475
5.57096145147641	0.18344990609145
5.73013177866145	0.174267005503347
5.88930210584649	0.164480698142357
6.04847243303153	0.154079267939046
6.20764276021657	0.143334566503436
6.36681308740161	0.131933198574211
6.52598341458665	0.120054785961608
6.68515374177169	0.107985502860103
6.84432406895673	0.0957700351415496
7.00349439614177	0.0785393555989488
7.16266472332681	0.0519642002433628
7.32183505051185	0.0295835056424464
7.48100537769689	0.0160840761114512
7.64017570488194	0.00961667487544841
7.79934603206697	0.00815133291991102
7.95851635925201	0.00839963299945726
8.11768668643706	0.00853999285205456
8.2768570136221	0.00877022534711244
8.43602734080713	0.00981093590645763
8.59519766799218	0.0106983657605293
8.75436799517722	0.0107380430390851
8.91353832236226	0.00982384209772014
9.0727086495473	0.00440905246968179
9.23187897673234	0.000717165036274863
9.39104930391738	0.000139257184615463
9.55021963110242	4.40176215245103e-05
9.70938995828746	2.12305195559175e-05
9.8685602854725	1.55495482374282e-05
10.0277306126575	1.5386360260031e-05
10.1869009398426	1.73817493479355e-05
10.3460712670276	1.90663548170042e-05
10.5052415942127	2.08118909085186e-05
10.6644119213977	2.2858253479731e-05
10.8235822485827	2.53625531483304e-05
10.9827525757678	2.74343440664773e-05
11.1419229029528	2.62780858545749e-05
11.3010932301379	2.39141732586585e-05
11.4602635573229	2.19117713307644e-05
11.6194338845079	2.02377158592236e-05
11.778604211693	1.88490514832382e-05
11.937774538878	1.76873877184085e-05
12.0969448660631	1.65550703368953e-05
12.2561151932481	1.54698561524519e-05
12.4152855204331	1.4512204141764e-05
12.5744558476182	1.36834361130099e-05
12.7336261748032	1.29685473580714e-05
12.8927965019883	1.23574898848247e-05
13.0519668291733	1.17491890233055e-05
13.2111371563583	1.11397106719516e-05
13.3703074835434	1.05836118832869e-05
13.5294778107284	1.01013684076411e-05
13.6886481379135	9.68539961788503e-06
13.8478184650985	9.33740345180663e-06
14.0069887922835	8.99027291260904e-06
14.1661

Note: README.md
# FrantzNodvik equation solver in 2+1D

File: sample-spect.txt
Wavelength[nm]	Intensity[normalized]	Ret_Intensity[normalized]	Phase[rad]
450.03	0.00231303	0.485156	2.36107
452.34	0.00579246	0.184757	2.70228
454.64	0.00228911	0.08032012	2.52923
456.94	0.00040540	0.04900751	3.26116
459.25	0.00207204	0.01975060	3.59497
461.55	0.00282675	0.01919739	4.32066
463.85	0.00155476	0.02245922	3.66117
466.15	0.00286624	0.05798164	3.44712
468.45	0.00214561	0.01762418	3.51138
470.75	0.00341080	0.03192163	4.05428
473.05	0.00225382	0.02542802	4.25589
475.35	0.00011662	0.00765938	4.77017
477.65	0.00339993	0.02846310	4.26012
479.95	0.00195368	0.01194928	3.85477
482.24	0.00019766	0.03102514	5.26736
484.54	0.00084793	0.00620758	3.82464
486.84	0.00015444	0.01901689	6.6934
489.13	0.00000000	0.01705018	5.4293
491.43	0.00129746	0.01289074	4.81573
493.72	0.00150671	0.01269535	3.61186
496.01	0.00107482	0.01122815	1.77916
498.30	0.00019047	0.00634762	1.11328
500.60	0.00069633	0.00031386	-0.181759
502.89	0.00197493	0.01580096	-0.215278
505.18	0.00146939	0.01201275	-0.901114
507.47	0.00003290	0.00994336	-0.677375
509.76	0.00003254	0.01020528	-1.42539
512.05	0.00214653	0.01831477	-0.874967
514.33	0.00081739	0.01021526	-1.68159
516.62	0.00083124	0.02094005	-1.08555
518.91	0.00165485	0.01705746	-1.47059
521.19	0.00216200	0.02215048	-1.35703
523.48	0.00198254	0.03799020	-1.63912
525.76	0.00168110	0.02349100	-1.95416
528.05	0.00159824	0.04016921	-1.89049
530.33	0.00217059	0.03120024	-2.12329
532.62	0.00178783	0.03772180	-2.36474
534.90	0.00139078	0.04327751	-2.71558
537.18	0.00194740	0.04184320	-2.82141
539.46	0.00133592	0.03844623	-2.97908
541.74	0.00168022	0.03956565	-3.11133
544.02	0.00245663	0.04473883	-3.07345
546.30	0.00180050	0.05018415	-3.1425
548.58	0.00261687	0.05412970	-3.09842
550.85	0.00299166	0.05867538	-2.96226
553.13	0.00293916	0.06953260	-2.8341
555.41	0.00290886	0.08001088	-2.5083
557.68	0.00289310	0.07908121	-2.41
559.96	0.00282543	0.08850913	-2.25529
562.23	0.00333842	0.09116946	-2.1303
564.51	0.00435144	0.09263956	-2.15726
566.78	0.00374438	0.106276	-2.21709
569.05	0.00421230	0.107436	-2.24929
571.33	0.00442834	0.121881	-2.39931
573.60	0.00477530	0.118747	-2.45515
575.87	0.00572933	0.111332	-2.37469
578.14	0.00590676	0.119548	-2.30029
580.41	0.00663475	0.131488	-2.1243
582.68	0.00763052	0.148197	-1.906
584.94	0.00636403	0.148338	-1.72609
587.21	0.00763797	0.161537	-1.57051
589.48	0.00690379	0.189791	-1.54138
591.74	0.00738716	0.196527	-1.57768
594.01	0.00767834	0.205153	-1.71112
596.27	0.00652670	0.228609	-1.86789
598.54	0.00794920	0.203997	-1.96832
600.80	0.00807141	0.20715	-2.04691
603.06	0.00970783	0.205874	-2.00437
605.33	0.01105167	0.225198	-1.80483
607.59	0.01197614	0.224482	-1.61261
609.85	0.01209975	0.264973	-1.38004
612.11	0.01262065	0.285651	-1.17567
614.37	0.01324379	0.28954	-1.02014
616.63	0.01372211	0.311244	-1.05028
618.88	0.01262932	0.319096	-1.09918
621.14	0.01240844	0.348671	-1.14638
623.40	0.01198278	0.348964	-1.17334
625.65	0.01335418	0.325561	-1.16152
627.91	0.01508088	0.326245	-1.09526
630.16	0.01707842	0.385569	-1.02527
632.42	0.01925142	0.432178	-0.945633
634.67	0.02065676	0.455141	-0.875759
636.93	0.02310459	0.431216	-0.907323
639.18	0.02239852	0.431564	-0.926891
641.43	0.02229763	0.468796	-1.02804
643.68	0.02040763	0.472795	-1.06702
645.93	0.01877187	0.463418	-1.0739
648.18	0.01795385	0.446478	-0.969324
650.43	0.01911604	0.451288	-0.816525
652.68	0.02319465	0.517382	-0.643546
654.92	0.02357053	0.62067	-0.479391
657.17	0.02769608	0.662551	-0.360858
659.42	0.03018486	0.654346	-0.331563
661.66	0.03433818	0.711256	-0.389207
663.91	0.03144680	0.743742	-0.531475
666.15	0.03120362	0.701262	-0.723808
668.39	0.02979671	0.670723	-0.869131
670.64	0.02712062	0.668846	-0.910395
672.88	0.02737559	0.672162	-0.843268
675.12	0.02666044	0.673216	-0.613601
677.36	0.02790728	0.730115	-0.359611
679.60	0.03111774	0.814497	-0.143333
681.84	0.03712805	0.881073	-0.01506649
684.08	0.03949581	0.903845	-0.01533501
686.32	0.04381797	0.930994	-0.124101
688.55	0.04290891	0.924701	-0.34573
690.79	0.04022909	0.936838	-0.586918
693.03	0.03508940	0.944288	-0.795366
695.26	0.03070281	0.926419	-0.884583
697.50	0.02985226	0.849072	-0.820803
699.73	0.02958120	0.764901	-0.662045
701.96	0.02882239	0.777117	-0.488779
704.20	0.02958422	0.853078	-0.303338
706.43	0.03074103	0.955245	-0.183244
708.66	0.03250476	1	-0.167921
710.89	0.03140414	0.943788	-0.23819
713.12	0.02729231	0.81263	-0.355333
715.35	0.02300515	0.662822	-0.482574
717.58	0.01960891	0.54923	-0.638794
719.81	0.01386815	0.466278	-0.764741
722.03	0.01201311	0.394089	-0.800177
724.26	0.01049572	0.341295	-0.735638
726.49	0.01195851	0.277074	-0.609504
728.71	0.00822646	0.218016	-0.376162
730.93	0.00906082	0.199129	-0.102298
733.16	0.00910664	0.21547	-0.00400194
735.38	0.01565546	0.255464	-0.03368836
737.60	0.01957269	0.312787	-0.09493485
739.83	0.02808054	0.355716	-0.130375
742.05	0.03330710	0.386874	-0.156856
744.27	0.03222257	0.406632	-0.151177
746.49	0.03402781	0.387351	-0.02177467
748.71	0.03332689	0.38531	0.131516
750.92	0.03217062	0.423835	0.331913
753.14	0.03196826	0.470623	0.527443
755.36	0.03086789	0.487462	0.676881
757.57	0.02609493	0.467619	0.773188
759.79	0.02786335	0.398589	0.745854
762.00	0.02523622	0.342381	0.664021
764.22	0.02171063	0.299991	0.546054
766.43	0.01464866	0.241765	0.366382
768.64	0.01050714	0.214477	0.136543
770.86	0.01066648	0.23432	-0.03426096
773.07	0.01213709	0.279711	-0.10616
775.28	0.01281192	0.313253	-0.07150788
777.49	0.01333571	0.308615	0.07734867
779.70	0.01214863	0.282536	0.222089
781.90	0.00876831	0.257985	0.313732
784.11	0.01409300	0.256534	0.344317
786.32	0.01596389	0.275257	0.405497
788.52	0.01728387	0.292312	0.446349
790.73	0.01235115	0.310905	0.430605
792.94	0.01563595	0.367933	0.387427
795.14	0.02611663	0.454377	0.392858
797.34	0.03013618	0.510153	0.474114
799.55	0.02398583	0.471654	0.64084
801.75	0.02227379	0.381689	0.799164
803.95	0.01771499	0.295267	0.945065
806.15	0.01783056	0.252214	1.04718
808.35	0.02032066	0.250466	1.0595
810.55	0.02573536	0.277992	1.01316
812.75	0.03333328	0.321228	0.936386
814.95	0.03580012	0.366119	0.802706
817.14	0.03354800	0.385881	0.632529
819.34	0.03266960	0.370069	0.456031
821.53	0.02879516	0.329302	0.314135
823.73	0.01957113	0.281328	0.161828
825.92	0.01659979	0.24012	0.01171597
828.12	0.01580769	0.211445	-0.03960641
830.31	0.01919614	0.22142	-0.00882486
832.50	0.02160029	0.281651	0.07565891
834.69	0.02707478	0.357645	0.190328
836.88	0.03102012	0.420164	0.283349
839.07	0.02716109	0.441267	0.312653
841.26	0.02972183	0.431997	0.295746
843.45	0.02167721	0.406724	0.244278
845.64	0.02518958	0.390111	0.204076
847.83	0.02443583	0.391589	0.172146
850.01	0.02848797	0.416758	0.154282
852.20	0.03131202	0.459874	0.15921
854.38	0.03428262	0.505163	0.200541
856.57	0.03562977	0.531153	0.283099
858.75	0.03640628	0.537137	0.412685
860.93	0.04114621	0.527099	0.569712
863.12	0.05133576	0.528149	0.720924
865.30	0.04758081	0.534311	0.857478
867.48	0.04610645	0.531778	0.961746
869.66	0.04749237	0.517868	1.02196
871.84	0.04884544	0.49039	1.0283
874.02	0.04322856	0.452082	0.985618
876.19	0.04936693	0.412534	0.90655
878.37	0.03888299	0.394332	0.805706
880.55	0.04029708	0.383518	0.717223
882.72	0.02864900	0.364255	0.689888
884.90	0.03690253	0.346008	0.697295
887.07	0.03869541	0.332747	0.734522
889.24	0.03659225	0.330091	0.831805
891.42	0.03461126	0.335443	0.976415
893.59	0.03031898	0.336286	1.13609
895.76	0.04497841	0.331808	1.28052
897.93	0.03111395	0.323492	1.35792
900.10	0.03272352	0.310162	1.37607
902.27	0.03934583	0.289744	1.332
904.44	0.03724309	0.265503	1.25206
906.60	0.03678144	0.239414	1.14111
908.77	0.03326135	0.224284	1.01375
910.94	0.03509161	0.225259	0.896346
913.10	0.02189530	0.219493	0.807409
915.27	0.02581109	0.201581	0.775243
917.43	0.02103146	0.188698	0.804705
919.59	0.02231658	0.182943	0.897726
921.76	0.02140917	0.175285	1.02499
923.92	0.02929638	0.165303	1.16108
926.08	0.02224828	0.157286	1.27473
928.24	0.01152193	0.150778	1.3503
930.40	0.03173078	0.143491	1.36042
932.56	0.01280414	0.134482	1.31387
934.72	0.02420669	0.12116	1.20867
936.87	0.03056167	0.106571	1.06923
939.03	0.02676816	0.09831631	0.919938
941.19	0.01363913	0.09576747	0.781291
943.34	0.01852748	0.09594241	0.684525
945.49	0.00673612	0.09572129	0.639394
947.65	0.03887651	0.08810411	0.641
949.80	0.04258252	0.07447371	0.68152
951.95	0.02333638	0.06419847	0.779497
954.10	0.01980044	0.05953689	0.911484
956.25	0.00000000	0.05711637	1.02083
958.40	0.01028395	0.05577630	1.07236
960.55	0.00601881	0.05402543	1.07683
962.70	0.03022186	0.05067814	1.02834
964.85	0.01275098	0.04868540	0.942538
967.00	0.01148033	0.05099043	0.826234
969.14	0.00042318	0.05200343	0.704817
971.29	0.01081291	0.04410015	0.605625
973.43	0.03146609	0.03557477	0.519861
975.58	0.02975561	0.03564555	0.426036
977.72	0.00439823	0.03902632	0.352466
979.86	0.01807105	0.03695664	0.358716
982.00	0.03057022	0.03007227	0.434041
984.14	0.02260732	0.02517248	0.509099
986.28	0.06764750	0.02480354	0.558499
988.42	0.02943237	0.02481775	0.624228
990.56	0.01875432	0.02240916	0.750229
992.70	0.01547691	0.01993866	0.844705
994.84	0.01171242	0.01900604	0.760192
996.97	0.01675843	0.01876728	0.600204
999.11	0.03293169	0.01824965	0.491694
1001.24	0.01626035	0.01725593	0.450286
1003.38	0.03074074	0.01607574	0.372465
1005.51	0.00000000	0.01471549	0.206472
1007.64	0.03366092	0.01369046	0.03336217
1009.77	0.03540762	0.01418999	-0.05701919
1011.91	0.00110307	0.01488709	-0.102757
1014.04	0.00000000	0.01405256	-0.122406
1016.16	0.06919526	0.01137785	-0.128658
1018.29	0.07560594	0.00829770	-0.144949
1020.42	0.100801	0.00577513	-0.169324
1022.55	0.02336354	0.00365333	-0.288696
1024.68	0.06971399	0.00209699	-0.662239
1026.80	0.00000000	0.00134739	-1.22745
1028.93	0.04822425	0.00187442	-1.83003
1031.05	0.04415724	0.00442560	-2.3733
1033.17	0.00000000	0.00718229	-2.82796
1035.30	0.104249	0.00841413	-3.0602
1037.42	0.02026230	0.00841598	-3.14328
1039.54	0.04972374	0.00793317	-3.18363
1041.66	0.05348343	0.00741710	-3.27109
1043.78	0.00000000	0.00646120	-3.3578
1045.90	0.00000000	0.00452679	-3.53459
1048.02	0.118286	0.00209988	-3.68229
1049.71	0.02049771	0.00037469	-3.63838